Folder: big-data-camp/data/Argonne Datasets/batteries

File: discharge_curves_time_capacity.csv
time_h,voltage_0.5C,discharge_capacity_0.5C_Ah,discharge_capacity_0.5C_mAh,specific_capacity_0.5C_mAh_g,voltage_1.0C,discharge_capacity_1.0C_Ah,discharge_capacity_1.0C_mAh,specific_capacity_1.0C_mAh_g,voltage_2.0C,discharge_capacity_2.0C_Ah,discharge_capacity_2.0C_mAh,specific_capacity_2.0C_mAh_g,voltage_3.0C,discharge_capacity_3.0C_Ah,discharge_capacity_3.0C_mAh,specific_capacity_3.0C_mAh_g
0.0,4.08997,0.0,0.0,0.0,4.03636,0.0,0.0,0.0,3.96121,0.0,0.0,0.0,3.90173,0.0,0.0,0.0
0.0147222,4.03447,0.0368056,36.8056,2.18532,3.94526,0.0736111,73.6111,4.37064,3.82086,0.147222,147.222,8.74129,3.18499,0.220833,220.833,13.1119
0.0291667,4.0175,0.0729167,72.9167,4.32941,3.93254,0.145833,145.833,8.65882,3.75525,0.291667,291.667,17.3176,,,,
0.0438889,4.00893,0.109722,109.722,6.51473,3.92666,0.219444,219.444,13.0295,3.70121,0.438889,438.889,26.0589,,,,
0.0586111,4.00439,0.146528,146.528,8.70006,3.9178,0.293056,293.056,17.4001,3.66342,0.586111,586.111,34.8002,,,,
0.0733333,4.00194,0.183333,183.333,10.8854,3.90513,0.366667,366.667,21.7708,3.63428,0.733333,733.333,43.5415,,,,
0.0880556,4.0005,0.220139,220.139,13.0707,3.89007,0.440278,440.278,26.1414,3.60864,0.880556,880.556,52.2828,,,,
0.102778,3.9994,0.256944,256.944,15.256,3.8741,0.513889,513.889,30.512,3.58277,1.02778,1027.78,61.0241,,,,
0.1175,3.99818,0.29375,293.75,17.4413,3.85827,0.5875,587.5,34.8827,3.55368,1.175,1175,69.7654,,,,
0.132222,3.99653,0.330556,330.556,19.6267,3.84315,0.661111,661.111,39.2533,3.51875,1.32222,1322.22,78.5067,,,,
0.146944,3.9943,0.367361,367.361,21.812,3.82899,0.734722,734.722,43.624,3.47603,1.46944,1469.44,87.248,,,,
0.161667,3.99139,0.404167,404.167,23.9973,3.81583,0.808333,808.333,47.9946,3.4332,1.61667,1616.67,95.9893,,,,
0.176389,3.98779,0.440972,440.972,26.1826,3.80359,0.881944,881.944,52.3653,3.40202,1.76389,1763.89,104.731,,,,
0.191111,3.98353,0.477778,477.778,28.368,3.79212,0.955556,955.556,56.7359,3.37963,1.91111,1911.11,113.472,,,,
0.205833,3.97867,0.514583,514.583,30.5533,3.78124,1.02917,1029.17,61.1066,3.36114,2.05833,2058.33,122.213,,,,
0.220556,3.9733,0.551389,551.389,32.7386,3.77074,1.10278,1102.78,65.4772,3.34432,2.20556,2205.56,130.954,,,,
0.235278,3.96749,0.588194,588.194,34.9239,3.76036,1.17639,1176.39,69.8479,3.32819,2.35278,2352.78,139.696,,,,
0.25,3.96135,0.625,625.0,37.1092,3.74976,1.25,1250,74.2185,3.3122,2.5,2500,148.437,,,,
0.264722,3.95497,0.661806,661.806,39.2946,3.73847,1.32361,1323.61,78.5891,3.29592,2.64722,2647.22,157.178,,,,
0.279444,3.94841,0.698611,698.611,41.4799,3.72578,1.39722,1397.22,82.9598,3.27878,2.79444,2794.44,165.92,,,,
0.294167,3.94176,0.735417,735.417,43.6652,3.71082,1.47083,1470.83,87.3304,3.25992,2.94167,2941.67,174.661,,,,
0.308889,3.93507,0.772222,772.222,45.8505,3.69303,1.54444,1544.44,91.7011,3.23801,3.08889,3088.89,183.402,,,,
0.323611,3.9284,0.809028,809.028,48.0359,3.67312,1.61806,1618.06,96.0717,3.21158,3.23611,3236.11,192.143,,,,
0.338333,3.92178,0.845833,845.833,50.2212,3.65304,1.69167,1691.67,100.442,3.18038,3.38333,3383.33,200.885,,,,
0.353056,3.91525,0.882639,882.639,52.4065,3.63443,1.76528,1765.28,104.813,3.14694,3.53056,3530.56,209.626,,,,
0.367778,3.90883,0.919444,919.444,54.5918,3.61761,1.83889,1838.89,109.184,3.11522,3.67778,3677.78,218.367,,,,
0.3825,3.90254,0.95625,956.25,56.7772,3.60221,1.9125,1912.5,113.554,3.08682,3.825,3825,227.109,,,,
0.397222,3.89638,0.993056,993.056,58.9625,3.5879,1.98611,1986.11,117.925,3.05895,3.97222,3972.22,235.85,,,,
0.411944,3.89036,1.02986,1029.86,61.1478,3.57456,2.05972,2059.72,122.296,3.02175,4.11944,4119.44,244.591,,,,
0.426667,3.88448,1.06667,1066.67,63.3331,3.56214,2.13333,2133.33,126.666,2.95336,4.26667,4266.67,253.332,,,,
0.441389,3.87873,1.10347,1103.47,65.5184,3.5506,2.20694,2206.94,131.037,2.84935,4.41389,4413.89,262.074,,,,
0.456111,3.87311,1.14028,1140.28,67.7038,3.53989,2.28056,2280.56,135.408,2.74046,4.56111,4561.11,270.815,,,,
0.470833,3.86758,1.17708,1177.08,69.8891,3.5299,2.35417,2354.17,139.778,2.58301,4.70833,4708.33,279.556,,,,
0.485278,3.86223,1.21319,1213.19,72.0332,3.52068,2.42639,2426.39,144.066,,,,,,,,
0.5,3.85683,1.25,1250.0,74.2185,3.51175,2.5,2500,148.437,,,,,,,,
0.514722,3.85143,1.28681,1286.81,76.4038,3.50315,2.57361,2573.61,152.808,,,,,,,,
0.529444,3.84598,1.32361,1323.61,78.5891,3.49478,2.64722,2647.22,157.178,,,,,,,,
0.544167,3.84043,1.36042,1360.42,80.7745,3.4865,2.72083,2720.83,161.549,,,,,,,,
0.558889,3.83467,1.39722,1397.22,82.9598,3.47821,2.79444,2794.44,165.92,,,,,,,,
0.573611,3.82862,1.43403,1434.03,85.1451,3.46977,2.86806,2868.06,170.29,,,,,,,,
0.588333,3.82216,1.47083,1470.83,87.3304,3.46104,2.94167,2941.67,174.661,,,,,,,,
0.603056,3.81518,1.50764,1507.64,89.5158,3.45187,3.01528,3015.28,179.032,,,,,,,,
0.617778,3.80761,1.54444,1544.44,91.7011,3.44205,3.08889,3088.89,183.402,,,,,,,,
0.6325,3.79944,1.58125,1581.25,93.8864,3.43139,3.1625,3162.5,187.773,,,,,,,,
0.647222,3.79076,1.61806,1618.06,96.0717,3.41967,3.23611,3236.11,192.143,,,,,,,,
0.661944,3.78178,1.65486,1654.86,98.257,3.40674,3.30972,3309.72,196.514,,,,,,,,
0.676667,3.77275,1.69167,1691.67,100.442,3.39258,3.38333,3383.33,200.885,,,,,,,,
0.691389,3.76392,1.72847,1728.47,102.628,3.37734,3.45694,3456.94,205.255,,,,,,,,
0.706111,3.75545,1.76528,1765.28,104.813,3.36139,3.53056,3530.56,209.626,,,,,,,,
0.720833,3.7474,1.80208,1802.08,106.998,3.34526,3.60417,3604.17,213.997,,,,,,,,
0.735556,3.73974,1.83889,1838.89,109.184,3.32949,3.67778,3677.78,218.367,,,,,,,,
0.750278,3.73241,1.87569,1875.69,111.369,3.3145,3.75139,3751.39,222.738,,,,,,,,
0.765,3.72529,1.9125,1912.5,113.554,3.30046,3.825,3825,227.109,,,,,,,,
0.779722,3.71829,1.94931,1949.31,115.74,3.28726,3.89861,3898.61,231.479,,,,,,,,
0.794444,3.71136,1.98611,1986.11,117.925,3.27452,3.97222,3972.22,235.85,,,,,,,,
0.809167,3.70444,2.02292,2022.92,120.11,3.26152,4.04583,4045.83,240.221,,,,,,,,
0.823889,3.69751,2.05972,2059.72,122.296,3.24702,4.11944,4119.44,244.591,,,,,,,,
0.838611,3.69056,2.09653,2096.53,124.481,3.22897,4.19306,4193.06,248.962,,,,,,,,
0.853333,3.68359,2.13333,2133.33,126.666,3.20423,4.26667,4266.67,253.332,,,,,,,,
0.868056,3.67664,2.17014,2170.14,128.852,3.1694,4.34028,4340.28,257.703,,,,,,,,
0.882778,3.66972,2.20694,2206.94,131.037,3.12371,4.41389,4413.89,262.074,,,,,,,,
0.8975,3.66287,2.24375,2243.75,133.222,3.07174,4.4875,4487.5,266.444,,,,,,,,
0.912222,3.65611,2.28056,2280.56,135.408,3.01963,4.56111,4561.11,270.815,,,,,,,,
0.926944,3.64947,2.31736,2317.36,137.593,2.96767,4.63472,4634.72,275.186,,,,,,,,
0.941667,3.64299,2.35417,2354.17,139.778,2.90857,4.70833,4708.33,279.556,,,,,,,,
0.956389,3.63667,2.39097,2390.97,141.963,2.82971,4.78194,4781.94,283.927,,,,,,,,
0.971111,3.63053,2.42778,2427.78,144.149,2.71287,4.85556,4855.56,288.298,,,,,,,,
0.985833,3.62459,2.46458,2464.58,146.334,2.5305,4.92917,4929.17,292.668,,,,,,,,
1.00028,3.61894,2.50069,2500.69,148.478,,,,,,,,,,,,
1.015,3.61336,2.5375,2537.5,150.664,,,,,,,,,,,,
1.02972,3.60797,2.57431,2574.31,152.849,,,,,,,,,,,,
1.04444,3.60274,2.61111,2611.11,155.034,,,,,,,,,,,,
1.05917,3.59767,2.64792,2647.92,157.22,,,,,,,,,,,,
1.07389,3.59273,2.68472,2684.72,159.405,,,,,,,,,,,,
1.08861,3.58791,2.72153,2721.53,161.59,,,,,,,,,,,,
1.10333,3.58318,2.75833,2758.33,163.775,,,,,,,,,,,,
1.11806,3.57854,2.79514,2795.14,165.961,,,,,,,,,,,,
1.13278,3.57394,2.83194,2831.94,168.146,,,,,,,,,,,,
1.1475,3.56938,2.86875,2868.75,170.331,,,,,,,,,,,,
1.16222,3.56483,2.90556,2905.56,172.517,,,,,,,,,,,,
1.17694,3.56027,2.94236,2942.36,174.702,,,,,,,,,,,,
1.19167,3.55567,2.97917,2979.17,176.887,,,,,,,,,,,,
1.20639,3.551,3.01597,3015.97,179.073,,,,,,,,,,,,
1.22111,3.54624,3.05278,3052.78,181.258,,,,,,,,,,,,
1.23583,3.54136,3.08958,3089.58,183.443,,,,,,,,,,,,
1.25056,3.53633,3.12639,3126.39,185.629,,,,,,,,,,,,
1.26528,3.53112,3.16319,3163.19,187.814,,,,,,,,,,,,
1.28,3.5257,3.2,3200,189.999,,,,,,,,,,,,
1.29472,3.52005,3.23681,3236.81,192.185,,,,,,,,,,,,
1.30944,3.51413,3.27361,3273.61,194.37,,,,,,,,,,,,
1.32417,3.50792,3.31042,3310.42,196.555,,,,,,,,,,,,
1.33889,3.50142,3.34722,3347.22,198.741,,,,,,,,,,,,
1.35361,3.49462,3.38403,3384.03,200.926,,,,,,,,,,,,
1.36833,3.48753,3.42083,3420.83,203.111,,,,,,,,,,,,
1.38306,3.48016,3.45764,3457.64,205.297,,,,,,,,,,,,
1.39778,3.47256,3.49444,3494.44,207.482,,,,,,,,,,,,
1.4125,3.46477,3.53125,3531.25,209.667,,,,,,,,,,,,
1.42722,3.45685,3.56806,3568.06,211.853,,,,,,,,,,,,
1.44194,3.44888,3.60486,3604.86,214.038,,,,,,,,,,,,
1.45667,3.44092,3.64167,3641.67,216.223,,,,,,,,,,,,
1.47139,3.43304,3.67847,3678.47,218.409,,,,,,,,,,,,
1.48611,3.4253,3.71528,3715.28,220.594,,,,,,,,,,,,
1.50083,3.41775,3.75208,3752.08,222.779,,,,,,,,,,,,
1.51556,3.41044,3.78889,3788.89,224.965,,,,,,,,,,,,
1.53028,3.40336,3.82569,3825.69,227.15,,,,,,,,,,,,
1.545,3.39654,3.8625,3862.5,229.335,,,,,,,,,,,,
1.55972,3.38994,3.89931,3899.31,231.52,,,,,,,,,,,,
1.57444,3.38354,3.93611,3936.11,233.706,,,,,,,,,,,,
1.58917,3.37728,3.97292,3972.92,235.891,,,,,,,,,,,,
1.60389,3.37109,4.00972,4009.72,238.076,,,,,,,,,,,,
1.61861,3.36489,4.04653,4046.53,240.262,,,,,,,,,,,,
1.63333,3.35855,4.08333,4083.33,242.447,,,,,,,,,,,,
1.64806,3.35191,4.12014,4120.14,244.632,,,,,,,,,,,,
1.66278,3.34476,4.15694,4156.94,246.818,,,,,,,,,,,,
1.6775,3.33684,4.19375,4193.75,249.003,,,,,,,,,,,,
1.69222,3.3278,4.23056,4230.56,251.188,,,,,,,,,,,,
1.70694,3.31724,4.26736,4267.36,253.374,,,,,,,,,,,,
1.72167,3.3047,4.30417,4304.17,255.559,,,,,,,,,,,,
1.73639,3.28971,4.34097,4340.97,257.744,,,,,,,,,,,,
1.75111,3.27195,4.37778,4377.78,259.93,,,,,,,,,,,,
1.76583,3.25134,4.41458,4414.58,262.115,,,,,,,,,,,,
1.78056,3.22819,4.45139,4451.39,264.3,,,,,,,,,,,,
1.79528,3.20318,4.48819,4488.19,266.486,,,,,,,,,,,,
1.81,3.17725,4.525,4525,268.671,,,,,,,,,,,,
1.82472,3.15123,4.56181,4561.81,270.856,,,,,,,,,,,,
1.83944,3.12557,4.59861,4598.61,273.042,,,,,,,,,,,,
1.85417,3.10021,4.63542,4635.42,275.227,,,,,,,,,,,,
1.86889,3.07455,4.67222,4672.22,277.412,,,,,,,,,,,,
1.88361,3.04755,4.70903,4709.03,279.598,,,,,,,,,,,,
1.89833,3.01787,4.74583,4745.83,281.783,,,,,,,,,,,,
1.91306,2.98388,4.78264,4782.64,283.968,,,,,,,,,,,,
1.92778,2.94363,4.81944,4819.44,286.154,,,,,,,,,,,,
1.9425,2.8948,4.85625,4856.25,288.339,,,,,,,,,,,,
1.95722,2.83455,4.89306,4893.06,290.524,,,,,,,,,,,,
1.97194,2.75936,4.92986,4929.86,292.71,,,,,,,,,,,,
1.98667,2.6648,4.96667,4966.67,294.895,,,,,,,,,,,,
2.00139,2.5452,5.00347,5003.47,297.08,,,,,,,,,,,,
2.00615,2.50001,5.01538,5015.38,297.787,,,,,,,,,,,,